screenEdgeLoop.thisRepN,screenEdgeLoop.thisTrialN,screenEdgeLoop.thisN,screenEdgeLoop.thisIndex,outerLoop.thisRepN,outerLoop.thisTrialN,outerLoop.thisN,outerLoop.thisIndex,midLoop.thisRepN,midLoop.thisTrialN,midLoop.thisN,midLoop.thisIndex,inLoop.thisRepN,inLoop.thisTrialN,inLoop.thisN,inLoop.thisIndex,contAveraging.thisRepN,contAveraging.thisTrialN,contAveraging.thisN,contAveraging.thisIndex,defineEye.thisRepN,defineEye.thisTrialN,defineEye.thisN,defineEye.thisIndex,t1Drift.thisRepN,t1Drift.thisTrialN,t1Drift.thisN,t1Drift.thisIndex,trials.thisRepN,trials.thisTrialN,trials.thisN,trials.thisIndex,decDrift.thisRepN,decDrift.thisTrialN,decDrift.thisN,decDrift.thisIndex,incDrift.thisRepN,incDrift.thisTrialN,incDrift.thisN,incDrift.thisIndex,constDrift.thisRepN,constDrift.thisTrialN,constDrift.thisN,constDrift.thisIndex,warningESC.started,warningESC.stopped,px per cm,instructTop.started,instructTop.stopped,instructBottom.started,instructBottom.stopped,line_R_vert.started,line_R_vert.stopped,line_L_vert.started,line_L_vert.stopped,line_T_horiz.started,line_T_horiz.stopped,line_B_horiz.started,line_B_horiz.stopped,nextPoly.started,nextPoly.stopped,nextMouse.started,nextMouse.stopped,instruct.started,instruct.stopped,screenEdgePx,line.started,line.stopped,moveTri.started,moveTri.stopped,targetTri.started,targetTri.stopped,nextPoly1.started,nextPoly1.stopped,text.started,text.stopped,instructPls.started,instructPls.stopped,tryAgainPoly.started,tryAgainPoly.stopped,tryAgainButton.started,tryAgainButton.stopped,tryAgainMouse.started,tryAgainMouse.stopped,instruct1.started,instruct1.stopped,squareStart.started,squareStart.stopped,dotStart.started,dotStart.stopped,tinyDotStart.started,tinyDotStart.stopped,dumiTrialCount.started,dumiTrialCount.stopped,dumiRestrtPoly.started,dumiRestrtPoly.stopped,dumiRestrtButt.started,dumiRestrtButt.stopped,num_repeat,square_x,square2center_dist,dot2square_dist,dot_dist_list,avg_dot_dist,dist2screen,square.started,square.stopped,dot.started,dot.stopped,tinyDot.started,tinyDot.stopped,trialCounter.started,trialCounter.stopped,restartPoly.started,restartPoly.stopped,restartText.started,restartText.stopped,restartMouse.started,restartMouse.stopped,instructOops.started,instructOops.stopped,tryAgainPoly1.started,tryAgainPoly1.stopped,tryAgainButton1.started,tryAgainButton1.stopped,tryAgainMouse1.started,tryAgainMouse1.stopped,instruct2.started,instruct2.stopped,key_resp_const_trial1.keys,key_resp_const_trial1.started,key_resp_const_trial1.stopped,radialEye_stim_const_trial1.started,radialEye_stim_const_trial1.stopped,bullseye_stim_const_trial1.started,bullseye_stim_const_trial1.stopped,Instruction_4.started,Instruction_4.stopped,tallResp.started,tallResp.stopped,wideResp.started,wideResp.stopped,gradDecResp.keys,gradDecResp.started,gradDecResp.stopped,Instruction.started,Instruction.stopped,gradIncResp.keys,gradIncResp.started,gradIncResp.stopped,Instruction_3.started,Instruction_3.stopped,constResp.keys,constResp.started,constResp.stopped,Instruction_5.started,Instruction_5.stopped,corrAns,allKeyResp,bullsContrast,radialContrast,allKeyRT,whichTrial,tall_wide,totalTrialCount,respList,resp,rt,thisInd,currSize,gradDecResp.rt,gradIncResp.rt,participant,session,which eye is blue,eye tested,previous contrast,date,expName,psychopyVersion,frameRate,
,,,,,,,,,,,,,,,,,,,,,,,,,,,,,,,,,,,,,,,,,,,,None,None,46.72897196261682,20.26446426199982,None,20.26446426199982,None,20.26446426199982,None,20.26446426199982,None,20.26446426199982,None,20.26446426199982,None,20.26446426199982,None,0.012364324706140906,None,,,,,,,,,,,,,,,,,,,,,,,,,,,,,,,,,,,,,,,,,,,,,,,,,,,,,,,,,,,,,,,,,,,,,,,,,,,,,,,,,,,,,,,,,,,,,,,,,,,,,,,,,,,,,,,1,right,right,.7,2022_Jan_04_1618,eyeDomExp,2021.2.3,60.0416919892596,
0,0,0,0,,,,,,,,,,,,,,,,,,,,,,,,,,,,,,,,,,,,,,,,,,,,,,,,,,,,,,,,,,,,26.7903549449984,None,-682,26.7903549449984,None,26.7903549449984,None,26.7903549449984,None,26.7903549449984,None,26.7903549449984,None,41.112972143810474,None,41.112972143810474,None,41.112972143810474,None,0.0062725727912038565,None,,,,,,,,,,,,,,,,,,,,,,,,,,,,,,,,,,,,,,,,,,,,,,,,,,,,,,,,,,,,,,,,,,,,,,,,,,,,,,,,,,,,,,,,,,1,right,right,.7,2022_Jan_04_1618,eyeDomExp,2021.2.3,60.0416919892596,
,,,,0,0,0,0,0,0,0,0,0,0,0,0,,,,,,,,,,,,,,,,,,,,,,,,,,,,,,,,,,,,,,,,,,,,,,,,,,,,,,,,,,,,,,,,,,,,,41.136102516029496,None,41.136102516029496,None,41.136102516029496,None,41.136102516029496,None,41.136102516029496,None,41.136102516029496,None,41.136102516029496,None,3,420.56074766355135,9,6,[438.3738317757009],146.1246105919003,11.779444444444447,42.17941558198072,None,42.17941558198072,None,42.17941558198072,None,42.17941558198072,None,42.17941558198072,None,42.17941558198072,None,0.009171065816190094,None,,,,,,,,,,,,,,,,,,,,,,,,,,,,,,,,,,,,,,,,,,,,,,,,,,,,,,,1,right,right,.7,2022_Jan_04_1618,eyeDomExp,2021.2.3,60.0416919892596,
,,,,0,0,0,0,0,0,0,0,1,0,1,0,,,,,,,,,,,,,,,,,,,,,,,,,,,,,,,,,,,,,,,,,,,,,,,,,,,,,,,,,,,,,,,,,,,,,,,,,,,,,,,,,,,3,420.56074766355135,9,6,"[438.3738317757009, 460.3738317757009]",299.58255451713393,25.46277777777778,44.86167648999253,None,44.86167648999253,None,44.86167648999253,None,44.86167648999253,None,44.86167648999253,None,44.86167648999253,None,0.010040723835118115,None,,,,,,,,,,,,,,,,,,,,,,,,,,,,,,,,,,,,,,,,,,,,,,,,,,,,,,,1,right,right,.7,2022_Jan_04_1618,eyeDomExp,2021.2.3,60.0416919892596,
,,,,0,0,0,0,0,0,0,0,2,0,2,0,,,,,,,,,,,,,,,,,,,,,,,,,,,,,,,,,,,,,,,,,,,,,,,,,,,,,,,,,,,,,,,,,,,,,,,,,,,,,,,,,,,3,420.56074766355135,9,6,"[438.3738317757009, 460.3738317757009, 489.3738317757009]",462.7071651090343,40.008055555555565,47.859110767021775,None,47.859110767021775,None,47.859110767021775,None,47.859110767021775,None,47.859110767021775,None,47.859110767021775,None,0.010139435762539506,None,,,,,,,,,,,,,,,,,,,,,,,,,,,,,,,,,,,,,,,,,,,,,,,,,,,,,,,1,right,right,.7,2022_Jan_04_1618,eyeDomExp,2021.2.3,60.0416919892596,
,,,,0,0,0,0,0,0,0,0,,,,,,,,,,,,,,,,,,,,,,,,,,,,,,,,,,,,,,,,,,,,,,,,,,,,,,,,,,,,,,,,,,,,,,,,,,,,,,,,,,,,,,,,,,,,,,,,,,,,,,,,,,,,,,,,,,,,,,,,,,,,,,,,,,,,,,,,,,,,,,,,,,,,,,,,,,,,,,,,,,1,right,right,.7,2022_Jan_04_1618,eyeDomExp,2021.2.3,60.0416919892596,
,,,,0,0,0,0,,,,,,,,,,,,,,,,,,,,,,,,,,,,,,,,,,,,,,,,,,,,,,,,,,,,,,,,,,,,,,,,,,,,,,,,,,,,,,,,,,,,,,,,,,,,,,,,,,,,,,,,,,,,,,,,51.33408853080473,None,51.33408853080473,None,51.33408853080473,None,0.011600080819334835,None,,,,,,,,,,,,,,,,,,,,,,,,,,,,,,,,,,,,,,,,,,,,,,,1,right,right,.7,2022_Jan_04_1618,eyeDomExp,2021.2.3,60.0416919892596,
,,,,,,,,,,,,,,,,,,,,,,,,,,,,0,0,0,0,,,,,,,,,,,,,,,,,,,,,,,,,,,,,,,,,,,,,,,,,,,,,,,,,,,,,,,,,,,,,,,,,,,,,,,,,,,,,,,,,,,,,,,,,,,,,,,,51.34006169100758,None,None,54.16235136502655,None,54.16235136502655,None,54.16235136502655,None,54.16235136502655,None,54.16235136502655,None,54.16235136502655,None,None,55.179288560000714,None,55.179288560000714,None,None,56.188632101984695,None,56.188632101984695,None,None,57.211837246024515,None,57.211837246024515,None,right,"[[], [], [], [], [], [], [], [], [], [], [], [], [], [], [], [], [], [], [], [], [], [], []]",0.7,0.5,"[[], [], [], [], [], [], [], [], [], [], [], [], [], [], [], [], [], [], [], [], [], [], []]",wide trial,0.45074606642209714,1,['noChange'],none,0,0,54.49520365085224,,,,1,right,right,.7,2022_Jan_04_1618,eyeDomExp,2021.2.3,60.0416919892596,
,,,,,,,,,,,,,,,,,,,,,,,,,,,,1,0,1,0,,,,,,,,,,,,,,,,,,,,,,,,,,,,,,,,,,,,,,,,,,,,,,,,,,,,,,,,,,,,,,,,,,,,,,,,,,,,,,,,,,,,,,,,,,,,,,,,,,,,,,,,,,,,,,,right,58.23512281902367,None,58.23512281902367,None,None,59.235761529009324,None,59.235761529009324,None,None,60.25040530401748,None,60.25040530401748,None,right,"[[], [], [], [], [], [], 'right', [], [], [], [], [], [], [], [], [], [], [], [], [], [], [], []]",0.7,0.5,"[[], [], [], [], [], [], 0.049813719000667334, [], [], [], [], [], [], [], [], [], [], [], [], [], [], [], []]",wide trial,0.4069443432521833,2,['noChange'],right,0.049813719000667334,0,54.49520365085224,0.049813719000667334,,,1,right,right,.7,2022_Jan_04_1618,eyeDomExp,2021.2.3,60.0416919892596,
,,,,,,,,,,,,,,,,,,,,,,,,,,,,2,0,2,0,,,,,,,,,,,,,,,,,,,,,,,,,,,,,,,,,,,,,,,,,,,,,,,,,,,,,,,,,,,,,,,,,,,,,,,,,,,,,,,,,,,,,,,,,,,,,,,,,,,,,,,,,,,,,,,None,61.26442856201902,None,61.26442856201902,None,None,62.27328653802397,None,62.27328653802397,None,None,63.298588578996714,None,63.298588578996714,None,right,"[[], [], [], [], [], [], [], [], [], [], [], [], [], [], [], [], [], [], [], [], [], [], []]",0.7,0.5,"[[], [], [], [], [], [], [], [], [], [], [], [], [], [], [], [], [], [], [], [], [], [], []]",wide trial,0.36089712549634434,3,['noChange'],none,0,0,54.49520365085224,,,,1,right,right,.7,2022_Jan_04_1618,eyeDomExp,2021.2.3,60.0416919892596,
,,,,,,,,,,,,,,,,,,,,,,,,,,,,3,0,3,0,,,,,,,,,,,,,,,,,,,,,,,,,,,,,,,,,,,,,,,,,,,,,,,,,,,,,,,,,,,,,,,,,,,,,,,,,,,,,,,,,,,,,,,,,,,,,,,,,,,,,,,,,,,,,,,None,64.29173209500732,None,64.29173209500732,None,None,65.29171277297428,None,65.29171277297428,None,None,66.30264863697812,None,66.30264863697812,None,right,"[[], [], [], [], [], [], [], 'right', [], [], [], [], [], [], [], [], [], [], [], [], [], [], []]",0.7,0.5,"[[], [], [], [], [], [], [], 0.08082343701971695, [], [], [], [], [], [], [], [], [], [], [], [], [], [], []]",wide trial,0.22413438044371192,4,['noChange'],right,0.08082343701971695,0,54.49520365085224,,0.08082343701971695,,1,right,right,.7,2022_Jan_04_1618,eyeDomExp,2021.2.3,60.0416919892596,
,,,,,,,,,,,,,,,,,,,,,,,,,,,,4,0,4,0,,,,,,,,,,,,,,,,,,,,,,,,,,,,,,,,,,,,,,,,,,,,,,,,,,,,,,,,,,,,,,,,,,,,,,,,,,,,,,,,,,,,,,,,,,,,,,,,,,,,,,,,,,,,,,,None,67.31098750198726,None,67.31098750198726,None,None,68.32940455997596,None,68.32940455997596,None,None,69.3331669109757,None,69.3331669109757,None,right,"[[], [], [], [], [], [], [], [], [], [], [], [], [], [], [], [], [], [], [], [], [], [], []]",0.7,0.5,"[[], [], [], [], [], [], [], [], [], [], [], [], [], [], [], [], [], [], [], [], [], [], []]",wide trial,0.09633496863324864,5,['noChange'],none,0,0,54.49520365085224,,,,1,right,right,.7,2022_Jan_04_1618,eyeDomExp,2021.2.3,60.0416919892596,
,,,,,,,,,,,,,,,,,,,,,,,,,,,,5,0,5,0,,,,,,,,,,,,,,,,,,,,,,,,,,,,,,,,,,,,,,,,,,,,,,,,,,,,,,,,,,,,,,,,,,,,,,,,,,,,,,,,,,,,,,,,,,,,,,,,,,,,,,,,,,,,,,,None,70.32695900002727,None,70.32695900002727,None,None,71.32828974002041,None,71.32828974002041,None,None,72.3535768709844,None,72.3535768709844,None,up,"[[], [], [], [], [], [], [], [], [], [], [], [], [], [], [], [], [], [], [], [], [], [], []]",0.7,0.5,"[[], [], [], [], [], [], [], [], [], [], [], [], [], [], [], [], [], [], [], [], [], [], []]",tall trial,0.5793872873995336,6,['noChange'],none,0,0,54.49520365085224,,,,1,right,right,.7,2022_Jan_04_1618,eyeDomExp,2021.2.3,60.0416919892596,
,,,,,,,,,,,,,,,,,,,,,,,,,,,,6,0,6,0,,,,,,,,,,,,,,,,,,,,,,,,,,,,,,,,,,,,,,,,,,,,,,,,,,,,,,,,,,,,,,,,,,,,,,,,,,,,,,,,,,,,,,,,,,,,,,,,,,,,,,,,,,,,,,,None,73.35268464399269,None,73.35268464399269,None,None,74.35921451600734,None,74.35921451600734,None,None,75.36732874601148,None,75.36732874601148,None,up,"[[], [], [], [], [], [], [], [], [], [], [], [], [], [], [], [], [], [], [], [], [], [], []]",0.7,0.5,"[[], [], [], [], [], [], [], [], [], [], [], [], [], [], [], [], [], [], [], [], [], [], []]",tall trial,0.8241263374391316,7,['noChange'],none,0,0,54.49520365085224,,,,1,right,right,.7,2022_Jan_04_1618,eyeDomExp,2021.2.3,60.0416919892596,
,,,,,,,,,,,,,,,,,,,,,,,,,,,,7,0,7,0,,,,,,,,,,,,,,,,,,,,,,,,,,,,,,,,,,,,,,,,,,,,,,,,,,,,,,,,,,,,,,,,,,,,,,,,,,,,,,,,,,,,,,,,,,,,,,,,,,,,,,,,,,,,,,,None,76.38659384899074,None,76.38659384899074,None,None,77.37814020499354,None,77.37814020499354,None,None,78.38928032200783,None,78.38928032200783,None,right,"['right', [], [], [], [], [], [], [], [], [], [], [], [], [], [], [], [], [], [], [], [], [], []]",0.7,0.5,"[0.04625312198186293, [], [], [], [], [], [], [], [], [], [], [], [], [], [], [], [], [], [], [], [], [], []]",wide trial,0.3804817005889576,8,['noChange'],right,0.04625312198186293,0,54.49520365085224,0.04625312198186293,,,1,right,right,.7,2022_Jan_04_1618,eyeDomExp,2021.2.3,60.0416919892596,
,,,,,,,,,,,,,,,,,,,,,,,,,,,,8,0,8,0,,,,,,,,,,,,,,,,,,,,,,,,,,,,,,,,,,,,,,,,,,,,,,,,,,,,,,,,,,,,,,,,,,,,,,,,,,,,,,,,,,,,,,,,,,,,,,,,,,,,,,,,,,,,,,,None,79.40635796898277,None,79.40635796898277,None,None,80.41146366298199,None,80.41146366298199,None,None,81.41339291800978,None,81.41339291800978,None,right,"[[], [], [], [], [], [], [], [], [], [], [], [], [], [], [], [], [], [], [], [], [], [], []]",0.7,0.5,"[[], [], [], [], [], [], [], [], [], [], [], [], [], [], [], [], [], [], [], [], [], [], []]",wide trial,0.20889047191601473,9,['noChange'],none,0,0,54.49520365085224,,,,1,right,right,.7,2022_Jan_04_1618,eyeDomExp,2021.2.3,60.0416919892596,
,,,,,,,,,,,,,,,,,,,,,,,,,,,,9,0,9,0,,,,,,,,,,,,,,,,,,,,,,,,,,,,,,,,,,,,,,,,,,,,,,,,,,,,,,,,,,,,,,,,,,,,,,,,,,,,,,,,,,,,,,,,,,,,,,,,,,,,,,,,,,,,,,,None,82.43915951100644,None,82.43915951100644,None,None,83.43922177399509,None,83.43922177399509,None,None,84.43206607899629,None,84.43206607899629,None,right,"[[], [], [], [], [], [], [], [], [], [], [], [], [], [], [], [], [], [], [], [], [], [], []]",0.7,0.5,"[[], [], [], [], [], [], [], [], [], [], [], [], [], [], [], [], [], [], [], [], [], [], []]",wide trial,0.024973009872325203,10,['noChange'],none,0,0,54.49520365085224,,,,1,right,right,.7,2022_Jan_04_1618,eyeDomExp,2021.2.3,60.0416919892596,
,,,,,,,,,,,,,,,,,,,,,,,,,,,,10,0,10,0,,,,,,,,,,,,,,,,,,,,,,,,,,,,,,,,,,,,,,,,,,,,,,,,,,,,,,,,,,,,,,,,,,,,,,,,,,,,,,,,,,,,,,,,,,,,,,,,,,,,,,,,,,,,,,,None,85.45908213302027,None,85.45908213302027,None,None,86.44851352600381,None,86.44851352600381,None,None,87.47030035901116,None,87.47030035901116,None,up,"[[], [], [], [], [], [], [], [], [], [], [], [], [], [], [], [], [], [], [], [], [], [], []]",0.7,0.5,"[[], [], [], [], [], [], [], [], [], [], [], [], [], [], [], [], [], [], [], [], [], [], []]",tall trial,0.6387218287336183,11,['noChange'],none,0,0,54.49520365085224,,,,1,right,right,.7,2022_Jan_04_1618,eyeDomExp,2021.2.3,60.0416919892596,
,,,,,,,,,,,,,,,,,,,,,,,,,,,,11,0,11,0,,,,,,,,,,,,,,,,,,,,,,,,,,,,,,,,,,,,,,,,,,,,,,,,,,,,,,,,,,,,,,,,,,,,,,,,,,,,,,,,,,,,,,,,,,,,,,,,,,,,,,,,,,,,,,,None,88.4696712649893,None,88.4696712649893,None,None,89.46845069597475,None,89.46845069597475,None,None,90.49189357698197,None,90.49189357698197,None,up,"[[], [], [], [], [], [], [], [], [], [], [], [], [], [], [], [], [], [], [], [], [], [], []]",0.7,0.5,"[[], [], [], [], [], [], [], [], [], [], [], [], [], [], [], [], [], [], [], [], [], [], []]",tall trial,0.9272775383698451,12,['noChange'],none,0,0,54.49520365085224,,,,1,right,right,.7,2022_Jan_04_1618,eyeDomExp,2021.2.3,60.0416919892596,
,,,,,,,,,,,,,,,,,,,,,,,,,,,,12,0,12,0,,,,,,,,,,,,,,,,,,,,,,,,,,,,,,,,,,,,,,,,,,,,,,,,,,,,,,,,,,,,,,,,,,,,,,,,,,,,,,,,,,,,,,,,,,,,,,,,,,,,,,,,,,,,,,,None,91.4969975730055,None,91.4969975730055,None,None,92.48994751297869,None,92.48994751297869,None,None,93.49882191402139,None,93.49882191402139,None,right,"[[], [], [], [], [], [], [], [], [], [], [], [], [], [], [], [], [], [], [], [], [], [], []]",0.7,0.5,"[[], [], [], [], [], [], [], [], [], [], [], [], [], [], [], [], [], [], [], [], [], [], []]",wide trial,0.08789584797978067,13,['noChange'],none,0,0,54.49520365085224,,,,1,right,right,.7,2022_Jan_04_1618,eyeDomExp,2021.2.3,60.0416919892596,
,,,,,,,,,,,,,,,,,,,,,,,,,,,,13,0,13,0,,,,,,,,,,,,,,,,,,,,,,,,,,,,,,,,,,,,,,,,,,,,,,,,,,,,,,,,,,,,,,,,,,,,,,,,,,,,,,,,,,,,,,,,,,,,,,,,,,,,,,,,,,,,,,,None,94.51932169898646,None,94.51932169898646,None,None,95.51060397102265,None,95.51060397102265,None,None,96.53566420602147,None,96.53566420602147,None,right,"[[], [], [], [], [], [], [], [], [], [], [], [], [], [], [], [], [], [], [], [], [], [], []]",0.7,0.5,"[[], [], [], [], [], [], [], [], [], [], [], [], [], [], [], [], [], [], [], [], [], [], []]",wide trial,0.09273993499671507,14,['noChange'],none,0,0,54.49520365085224,,,,1,right,right,.7,2022_Jan_04_1618,eyeDomExp,2021.2.3,60.0416919892596,
,,,,,,,,,,,,,,,,,,,,,,,,,,,,14,0,14,0,,,,,,,,,,,,,,,,,,,,,,,,,,,,,,,,,,,,,,,,,,,,,,,,,,,,,,,,,,,,,,,,,,,,,,,,,,,,,,,,,,,,,,,,,,,,,,,,,,,,,,,,,,,,,,,None,97.53104414697737,None,97.53104414697737,None,None,98.53253003500868,None,98.53253003500868,None,None,99.56212809099816,None,99.56212809099816,None,up,"[[], [], [], [], [], [], [], [], [], [], [], [], [], [], [], [], [], [], [], [], [], [], []]",0.7,0.5,"[[], [], [], [], [], [], [], [], [], [], [], [], [], [], [], [], [], [], [], [], [], [], []]",tall trial,0.677743443861223,15,['noChange'],none,0,0,54.49520365085224,,,,1,right,right,.7,2022_Jan_04_1618,eyeDomExp,2021.2.3,60.0416919892596,
,,,,,,,,,,,,,,,,,,,,,,,,,,,,15,0,15,0,,,,,,,,,,,,,,,,,,,,,,,,,,,,,,,,,,,,,,,,,,,,,,,,,,,,,,,,,,,,,,,,,,,,,,,,,,,,,,,,,,,,,,,,,,,,,,,,,,,,,,,,,,,,,,,None,100.57243116101017,None,100.57243116101017,None,None,101.56621247302974,None,101.56621247302974,None,None,102.5789499580278,None,102.5789499580278,None,up,"[[], [], [], [], [], [], [], [], [], [], [], [], [], [], [], [], [], [], [], [], [], [], []]",0.7,0.5,"[[], [], [], [], [], [], [], [], [], [], [], [], [], [], [], [], [], [], [], [], [], [], []]",tall trial,0.9442195579667161,16,['noChange'],none,0,0,54.49520365085224,,,,1,right,right,.7,2022_Jan_04_1618,eyeDomExp,2021.2.3,60.0416919892596,
,,,,,,,,,,,,,,,,,,,,,,,,,,,,16,0,16,0,,,,,,,,,,,,,,,,,,,,,,,,,,,,,,,,,,,,,,,,,,,,,,,,,,,,,,,,,,,,,,,,,,,,,,,,,,,,,,,,,,,,,,,,,,,,,,,,,,,,,,,,,,,,,,,None,103.60623255197424,None,103.60623255197424,None,None,104.60078927100403,None,104.60078927100403,None,None,105.61508733901428,None,105.61508733901428,None,right,"[[], [], [], [], [], [], [], [], [], [], [], [], [], [], [], [], [], [], [], [], [], [], []]",0.7,0.5,"[[], [], [], [], [], [], [], [], [], [], [], [], [], [], [], [], [], [], [], [], [], [], []]",wide trial,0.37867903233738576,17,['noChange'],none,0,0,54.49520365085224,,,,1,right,right,.7,2022_Jan_04_1618,eyeDomExp,2021.2.3,60.0416919892596,
,,,,,,,,,,,,,,,,,,,,,,,,,,,,17,0,17,0,,,,,,,,,,,,,,,,,,,,,,,,,,,,,,,,,,,,,,,,,,,,,,,,,,,,,,,,,,,,,,,,,,,,,,,,,,,,,,,,,,,,,,,,,,,,,,,,,,,,,,,,,,,,,,,None,106.63410909799859,None,106.63410909799859,None,None,107.6320117309806,None,107.6320117309806,None,None,108.64812995301327,None,108.64812995301327,None,up,"[[], [], [], [], [], [], [], [], [], [], [], [], [], [], [], [], [], [], [], [], [], [], []]",0.7,0.5,"[[], [], [], [], [], [], [], [], [], [], [], [], [], [], [], [], [], [], [], [], [], [], []]",tall trial,0.5470564228330916,18,['noChange'],none,0,0,54.49520365085224,,,,1,right,right,.7,2022_Jan_04_1618,eyeDomExp,2021.2.3,60.0416919892596,
,,,,,,,,,,,,,,,,,,,,,,,,,,,,18,0,18,0,,,,,,,,,,,,,,,,,,,,,,,,,,,,,,,,,,,,,,,,,,,,,,,,,,,,,,,,,,,,,,,,,,,,,,,,,,,,,,,,,,,,,,,,,,,,,,,,,,,,,,,,,,,,,,,None,109.6635814270121,None,109.6635814270121,None,None,110.6638844590052,None,110.6638844590052,None,None,111.68282459501643,None,111.68282459501643,None,right,"[[], [], [], [], [], [], [], [], [], [], [], [], [], [], [], [], [], [], [], [], [], [], []]",0.7,0.5,"[[], [], [], [], [], [], [], [], [], [], [], [], [], [], [], [], [], [], [], [], [], [], []]",wide trial,0.3468973774043197,19,['noChange'],none,0,0,54.49520365085224,,,,1,right,right,.7,2022_Jan_04_1618,eyeDomExp,2021.2.3,60.0416919892596,
,,,,,,,,,,,,,,,,,,,,,,,,,,,,19,0,19,0,,,,,,,,,,,,,,,,,,,,,,,,,,,,,,,,,,,,,,,,,,,,,,,,,,,,,,,,,,,,,,,,,,,,,,,,,,,,,,,,,,,,,,,,,,,,,,,,,,,,,,,,,,,,,,,None,112.70750790199963,None,112.70750790199963,None,None,113.70378621399868,None,113.70378621399868,None,None,114.72464340698207,None,114.72464340698207,None,right,"[[], [], [], [], [], [], [], [], [], [], [], [], [], [], [], [], [], [], [], [], [], [], []]",0.7,0.5,"[[], [], [], [], [], [], [], [], [], [], [], [], [], [], [], [], [], [], [], [], [], [], []]",wide trial,0.21009343152673154,20,['noChange'],none,0,0,54.49520365085224,,,,1,right,right,.7,2022_Jan_04_1618,eyeDomExp,2021.2.3,60.0416919892596,
,,,,,,,,,,,,,,,,,,,,,,,,,,,,20,0,20,0,,,,,,,,,,,,,,,,,,,,,,,,,,,,,,,,,,,,,,,,,,,,,,,,,,,,,,,,,,,,,,,,,,,,,,,,,,,,,,,,,,,,,,,,,,,,,,,,,,,,,,,,,,,,,,,None,115.72422816901235,None,115.72422816901235,None,None,116.72328213398578,None,116.72328213398578,None,None,117.73876019497402,None,117.73876019497402,None,right,"[[], [], [], [], [], [], [], 'right', [], [], [], [], [], [], [], [], [], [], [], [], [], [], []]",0.7,0.5,"[[], [], [], [], [], [], [], 0.037324659002479166, [], [], [], [], [], [], [], [], [], [], [], [], [], [], []]",wide trial,0.27268407459126365,21,['noChange'],right,0.037324659002479166,0,54.49520365085224,,0.037324659002479166,,1,right,right,.7,2022_Jan_04_1618,eyeDomExp,2021.2.3,60.0416919892596,
,,,,,,,,,,,,,,,,,,,,,,,,,,,,21,0,21,0,,,,,,,,,,,,,,,,,,,,,,,,,,,,,,,,,,,,,,,,,,,,,,,,,,,,,,,,,,,,,,,,,,,,,,,,,,,,,,,,,,,,,,,,,,,,,,,,,,,,,,,,,,,,,,,None,118.76568721997319,None,118.76568721997319,None,None,119.75542557501467,None,119.75542557501467,None,None,120.76581582799554,None,120.76581582799554,None,up,"[[], [], [], [], [], [], [], [], [], [], [], [], [], [], [], [], [], [], [], [], [], [], []]",0.7,0.5,"[[], [], [], [], [], [], [], [], [], [], [], [], [], [], [], [], [], [], [], [], [], [], []]",tall trial,0.7471152551605124,22,['noChange'],none,0,0,54.49520365085224,,,,1,right,right,.7,2022_Jan_04_1618,eyeDomExp,2021.2.3,60.0416919892596,
,,,,,,,,,,,,,,,,,,,,,,,,,,,,22,0,22,0,,,,,,,,,,,,,,,,,,,,,,,,,,,,,,,,,,,,,,,,,,,,,,,,,,,,,,,,,,,,,,,,,,,,,,,,,,,,,,,,,,,,,,,,,,,,,,,,,,,,,,,,,,,,,,,None,121.79188445402542,None,121.79188445402542,None,None,122.79862874699757,None,122.79862874699757,None,None,123.79181000799872,None,123.79181000799872,None,up,"[[], [], [], [], [], [], [], [], [], [], [], [], [], [], [], [], [], [], [], [], [], [], []]",0.7,0.5,"[[], [], [], [], [], [], [], [], [], [], [], [], [], [], [], [], [], [], [], [], [], [], []]",tall trial,0.9017167990654614,23,['noChange'],none,0,0,54.49520365085224,,,,1,right,right,.7,2022_Jan_04_1618,eyeDomExp,2021.2.3,60.0416919892596,
,,,,,,,,,,,,,,,,,,,,,,,,,,,,23,0,23,0,,,,,,,,,,,,,,,,,,,,,,,,,,,,,,,,,,,,,,,,,,,,,,,,,,,,,,,,,,,,,,,,,,,,,,,,,,,,,,,,,,,,,,,,,,,,,,,,,,,,,,,,,,,,,,,None,124.80947244301206,None,124.80947244301206,None,None,125.81040887901327,None,125.81040887901327,None,None,126.82455620798282,None,126.82455620798282,None,right,"[[], [], [], [], [], [], [], [], [], [], [], [], 'right', [], [], [], [], [], [], [], [], [], []]",0.7,0.5,"[[], [], [], [], [], [], [], [], [], [], [], [], -0.00454149697907269, [], [], [], [], [], [], [], [], [], []]",wide trial,0.18279150921507592,24,['noChange'],right,-0.00454149697907269,0,54.49520365085224,,-0.00454149697907269,,1,right,right,.7,2022_Jan_04_1618,eyeDomExp,2021.2.3,60.0416919892596,
,,,,,,,,,,,,,,,,,,,,,,,,,,,,24,0,24,0,,,,,,,,,,,,,,,,,,,,,,,,,,,,,,,,,,,,,,,,,,,,,,,,,,,,,,,,,,,,,,,,,,,,,,,,,,,,,,,,,,,,,,,,,,,,,,,,,,,,,,,,,,,,,,,None,127.84624044899829,None,127.84624044899829,None,None,128.84002130199224,None,128.84002130199224,None,None,129.85335198702523,None,129.85335198702523,None,up,"[[], [], [], [], [], [], [], [], [], [], [], [], [], [], [], [], [], [], [], [], [], [], []]",0.7,0.5,"[[], [], [], [], [], [], [], [], [], [], [], [], [], [], [], [], [], [], [], [], [], [], []]",tall trial,0.5530345237928029,25,['noChange'],none,0,0,54.49520365085224,,,,1,right,right,.7,2022_Jan_04_1618,eyeDomExp,2021.2.3,60.0416919892596,
,,,,,,,,,,,,,,,,,,,,,,,,,,,,25,0,25,0,,,,,,,,,,,,,,,,,,,,,,,,,,,,,,,,,,,,,,,,,,,,,,,,,,,,,,,,,,,,,,,,,,,,,,,,,,,,,,,,,,,,,,,,,,,,,,,,,,,,,,,,,,,,,,,None,130.86557437700685,None,130.86557437700685,None,None,131.86305197601905,None,131.86305197601905,None,None,132.87628671800485,None,132.87628671800485,None,up,"[[], [], [], [], [], [], [], [], [], [], [], [], [], [], [], [], [], [], [], [], [], [], []]",0.7,0.5,"[[], [], [], [], [], [], [], [], [], [], [], [], [], [], [], [], [], [], [], [], [], [], []]",tall trial,0.7221822161936319,26,['noChange'],none,0,0,54.49520365085224,,,,1,right,right,.7,2022_Jan_04_1618,eyeDomExp,2021.2.3,60.0416919892596,
,,,,,,,,,,,,,,,,,,,,,,,,,,,,26,0,26,0,,,,,,,,,,,,,,,,,,,,,,,,,,,,,,,,,,,,,,,,,,,,,,,,,,,,,,,,,,,,,,,,,,,,,,,,,,,,,,,,,,,,,,,,,,,,,,,,,,,,,,,,,,,,,,,None,133.90473558701342,None,133.90473558701342,None,None,134.9011565729743,None,134.9011565729743,None,None,135.89533737301826,None,135.89533737301826,None,up,"[[], [], [], [], [], [], [], [], [], [], [], [], [], [], [], [], [], [], [], [], [], [], []]",0.7,0.5,"[[], [], [], [], [], [], [], [], [], [], [], [], [], [], [], [], [], [], [], [], [], [], []]",tall trial,0.7703732878102031,27,['noChange'],none,0,0,54.49520365085224,,,,1,right,right,.7,2022_Jan_04_1618,eyeDomExp,2021.2.3,60.0416919892596,
,,,,,,,,,,,,,,,,,,,,,,,,,,,,27,0,27,0,,,,,,,,,,,,,,,,,,,,,,,,,,,,,,,,,,,,,,,,,,,,,,,,,,,,,,,,,,,,,,,,,,,,,,,,,,,,,,,,,,,,,,,,,,,,,,,,,,,,,,,,,,,,,,,None,136.9142505589989,None,136.9142505589989,None,None,137.92433735600207,None,137.92433735600207,None,None,138.913327013026,None,138.913327013026,None,up,"[[], [], [], [], [], [], [], [], [], [], [], [], [], [], [], [], [], [], [], [], [], [], []]",0.7,0.5,"[[], [], [], [], [], [], [], [], [], [], [], [], [], [], [], [], [], [], [], [], [], [], []]",tall trial,0.685802712751971,28,['noChange'],none,0,0,54.49520365085224,,,,1,right,right,.7,2022_Jan_04_1618,eyeDomExp,2021.2.3,60.0416919892596,
,,,,,,,,,,,,,,,,,,,,,,,,,,,,28,0,28,0,,,,,,,,,,,,,,,,,,,,,,,,,,,,,,,,,,,,,,,,,,,,,,,,,,,,,,,,,,,,,,,,,,,,,,,,,,,,,,,,,,,,,,,,,,,,,,,,,,,,,,,,,,,,,,,None,139.93563268199796,None,139.93563268199796,None,None,140.93228006601566,None,140.93228006601566,None,None,141.94532814901322,None,141.94532814901322,None,right,"[[], [], [], [], [], [], [], [], 'right', [], [], [], [], [], [], [], [], [], [], [], [], [], []]",0.7,0.5,"[[], [], [], [], [], [], [], [], 0.07108409999636933, [], [], [], [], [], [], [], [], [], [], [], [], [], []]",wide trial,0.00668060646392199,29,['noChange'],right,0.07108409999636933,0,54.49520365085224,,0.07108409999636933,,1,right,right,.7,2022_Jan_04_1618,eyeDomExp,2021.2.3,60.0416919892596,
,,,,,,,,,,,,,,,,,,,,,,,,,,,,29,0,29,0,,,,,,,,,,,,,,,,,,,,,,,,,,,,,,,,,,,,,,,,,,,,,,,,,,,,,,,,,,,,,,,,,,,,,,,,,,,,,,,,,,,,,,,,,,,,,,,,,,,,,,,,,,,,,,,None,142.96085380000295,None,142.96085380000295,None,None,143.95692772098118,None,143.95692772098118,None,None,144.9775191639783,None,144.9775191639783,None,up,"[[], [], [], [], [], [], [], [], [], [], [], [], [], [], [], [], [], [], [], [], [], [], []]",0.7,0.5,"[[], [], [], [], [], [], [], [], [], [], [], [], [], [], [], [], [], [], [], [], [], [], []]",tall trial,0.5436882841426457,30,['noChange'],none,0,0,54.49520365085224,,,,1,right,right,.7,2022_Jan_04_1618,eyeDomExp,2021.2.3,60.0416919892596,
